<?xml version="1.0" encoding="UTF-8"?>
<ImplementationGuide
    xmlns="http://hl7.org/fhir">
    <id value="phcp"/>
    <meta>
        <versionId value="81"/>
        <lastUpdated value="2019-03-25T21:29:59.000-04:00"/>
    </meta>
    <contained>
        <Binary>
            <id value="5035"/>
            <contentType value="text/markdown"/>
            <data value=""/>
        </Binary>
    </contained>
    <contained>
        <Binary>
            <id value="5282"/>
            <contentType value="text/markdown"/>
            <data value=""/>
        </Binary>
    </contained>
    <contained>
        <Binary>
            <id value="8598"/>
            <contentType value="text/markdown"/>
            <data value=""/>
        </Binary>
    </contained>
    <contained>
        <Binary>
            <id value="8572"/>
            <contentType value="text/markdown"/>
            <data value=""/>
        </Binary>
    </contained>
    <contained>
        <Binary>
            <id value="9584"/>
            <contentType value="text/markdown"/>
            <data value=""/>
        </Binary>
    </contained>
    <contained>
        <Binary>
            <id value="6924"/>
            <contentType value="text/markdown"/>
            <data value=""/>
        </Binary>
    </contained>
    <url value="http://hl7.org/fhir/us/phcp/ImplementationGuide/phcp"/>
    <version value="0.2.0"/>
    <name value="PharmacistServicesAndSummariesPhCP"/>
    <title value="Pharmacist Services and Summaries - FHIR (PhCP)"/>
    <status value="draft"/>
    <publisher value="HL7 Structured Documents  Work Group"/>
    <contact>
        <name value="HL7 International - Structured Documents Work Group"/>
        <telecom>
            <system value="url"/>
            <value value="http://www.hl7.org/Special/committees/structure"/>
        </telecom>
    </contact>
    <contact>
        <name value="Rick Geimer"/>
        <telecom>
            <system value="email"/>
            <value value="rick.geimer@lantanagroup.com"/>
        </telecom>
    </contact>
    <description value="This document describes constraints on the the FHIR Composition resource for a Pharmacist Care Plan, which are derived from requirements set forth by the Pharmacy Health Information Technology (HIT) Collaborative1 and the National Council for Prescription Drug Programs (NCPDP) WG10 Professional Pharmacy Services,2 vendors, and Health Level Seven (HL7) stakeholder workgroups. Templates in this US Realm implementation guide are specific to pharmacy management treatment and interventions that will promote interoperability and will create information suitable for reuse in quality measurement, public health reporting, research, and reimbursement.&#xA;&#xA;This guide contains a library of Fast Health Interoperability Resources (FHIR) profiles, and is compliant with the  C-CDA on FHIR specification&#xA;"/>
    <packageId value="hl7.fhir.us.phcp"/>
    <fhirVersion value="4.0.0"/>
    <dependsOn>
        <extension url="https://trifolia-fhir.lantanagroup.com/r4/StructureDefinition/extension-ig-depends-on-location">
            <valueString value="http://hl7.org/fhir/us/core"/>
        </extension>
        <extension url="https://trifolia-fhir.lantanagroup.com/r4/StructureDefinition/extension-ig-depends-on-name">
            <valueString value="USCoreR4"/>
        </extension>
        <uri value="http://hl7.org/fhir/us/core/ImplementationGuide/ig"/>
        <packageId value="hl7.fhir.us.core"/>
        <version value="current"/>
    </dependsOn>
    <dependsOn>
        <extension url="https://trifolia-fhir.lantanagroup.com/r4/StructureDefinition/extension-ig-depends-on-location">
            <valueString value="http://hl7.org/fhir/us/ccda-r4"/>
        </extension>
        <extension url="https://trifolia-fhir.lantanagroup.com/r4/StructureDefinition/extension-ig-depends-on-name">
            <valueString value="CCDAonFHIRR4"/>
        </extension>
        <uri value="http://hl7.org/fhir/us/ccda-r4/ImplementationGuide/CCDA-on-FHIR-R4"/>
        <packageId value="hl7.fhir.us.ccda.r4"/>
        <version value="current"/>
    </dependsOn>
    <definition>
        <resource>
            <reference>
                <reference value="StructureDefinition/PhCP-CareCoordination"/>
                <display value="PhCP-CareCoordination"/>
            </reference>
            <exampleBoolean value="false"/>
        </resource>
        <resource>
            <reference>
                <reference value="StructureDefinition/PhCP-Coverage"/>
                <display value="PhCP-Coverage"/>
            </reference>
            <exampleBoolean value="false"/>
        </resource>
        <resource>
            <reference>
                <reference value="StructureDefinition/PhCP-MedicationDispense"/>
                <display value="PhCP-MedicationDispense"/>
            </reference>
            <exampleBoolean value="false"/>
        </resource>
        <resource>
            <reference>
                <reference value="StructureDefinition/PhCP-Composition"/>
                <display value="PhCP Composition"/>
            </reference>
            <exampleBoolean value="false"/>
        </resource>
        <resource>
            <reference>
                <reference value="StructureDefinition/PhCP-ServiceRequest"/>
                <display value="PhCP-ServiceRequest"/>
            </reference>
            <exampleBoolean value="false"/>
        </resource>
        <resource>
            <reference>
                <reference value="StructureDefinition/PhCP-Instruction-Procedure"/>
                <display value="PhCP-Instruction-Procedure"/>
            </reference>
            <exampleBoolean value="false"/>
        </resource>
        <resource>
            <reference>
                <reference value="StructureDefinition/PhCP-Encounter"/>
                <display value="PhCP Encounter"/>
            </reference>
            <exampleBoolean value="false"/>
        </resource>
        <resource>
            <reference>
                <reference value="StructureDefinition/PhCP-Organization"/>
                <display value="PhCP-Organization"/>
            </reference>
            <exampleBoolean value="false"/>
        </resource>
        <resource>
            <reference>
                <reference value="StructureDefinition/PhCP-Intervention-Procedure"/>
                <display value="PhCP-Intervention-Procedure"/>
            </reference>
            <exampleBoolean value="false"/>
        </resource>
        <resource>
            <reference>
                <reference value="StructureDefinition/PhCP-Medication-Therapy-Condition"/>
                <display value="PhCP Condition"/>
            </reference>
            <exampleBoolean value="false"/>
        </resource>
        <resource>
            <reference>
                <reference value="Composition/PhCP-Composition-Example"/>
                <display value="phcp-composition-example"/>
            </reference>
            <name value="Care Plan"/>
            <exampleBoolean value="true"/>
        </resource>
        <resource>
            <reference>
                <reference value="Patient/phcp-patient-example"/>
                <display value="phcp-patient-example"/>
            </reference>
            <name value="Patient Amy V. Shaw"/>
            <exampleBoolean value="true"/>
        </resource>
        <resource>
            <reference>
                <reference value="Practitioner/phcp-practitioner-example"/>
                <display value="phcp-practitioner-example"/>
            </reference>
            <name value="Practitioner Ronald Bone"/>
            <exampleBoolean value="true"/>
        </resource>
        <resource>
            <reference>
                <reference value="PractitionerRole/phcp-practitionerrole-example"/>
                <display value="phcp-practitionerrole-example"/>
            </reference>
            <name value="phcp-practitionerrole-example"/>
            <exampleBoolean value="true"/>
        </resource>
        <resource>
            <reference>
                <reference value="Organization/phcp-organization-example"/>
                <display value="phcp-organization-example"/>
            </reference>
            <name value="Acme Labs"/>
            <exampleBoolean value="true"/>
        </resource>
        <resource>
            <reference>
                <reference value="RelatedPerson/phcp-relatedperson-example"/>
                <display value="phcp-relatedperson-example"/>
            </reference>
            <name value="phcp-relatedperson-example"/>
            <exampleBoolean value="true"/>
        </resource>
        <page>
            <extension url="https://trifolia-on-fhir.lantanagroup.com/StructureDefinition/extension-ig-page-auto-generate-toc">
                <valueBoolean value="true"/>
            </extension>
            <nameUrl value="toc.md"/>
            <title value="Table of Contents"/>
            <generation value="generated"/>
            <page>
                <nameReference>
                    <reference value="#5035"/>
                    <display value="Page content 5035"/>
                </nameReference>
                <title value="Acknowledgments"/>
                <generation value="markdown"/>
            </page>
            <page>
                <nameReference>
                    <reference value="#5282"/>
                    <display value="Page content 5282"/>
                </nameReference>
                <title value="Purpose"/>
                <generation value="markdown"/>
            </page>
            <page>
                <nameReference>
                    <reference value="#8598"/>
                    <display value="Page content 8598"/>
                </nameReference>
                <title value="Audience"/>
                <generation value="markdown"/>
            </page>
            <page>
                <nameReference>
                    <reference value="#8572"/>
                    <display value="Page content 8572"/>
                </nameReference>
                <title value="Project Background"/>
                <generation value="markdown"/>
            </page>
            <page>
                <nameReference>
                    <reference value="#9584"/>
                    <display value="Page content 9584"/>
                </nameReference>
                <title value="Current Project"/>
                <generation value="markdown"/>
            </page>
            <page>
                <nameReference>
                    <reference value="#6924"/>
                    <display value="Page content 6924"/>
                </nameReference>
                <title value="Use Cases"/>
                <generation value="markdown"/>
            </page>
        </page>
    </definition>
</ImplementationGuide>